File: 1231_5th.csv
Cycle,Battery ID,Min Voltage (V),Max Voltage (V),Internal Resistance (Ohms),Charge Capacity (Ah),Discharge Capacity (Ah),Charge Energy (Wh),Discharge Energy (Wh),SOH (%),Charge-Discharge Efficiency (%),Energy Efficiency (%)
1,B0047,3.48619,4.21459,3.53349,1.54161,1.52437,6.41883,5.38101,76.2183,98.8814,83.8317
5,B0047,3.32562,4.21464,3.56188,1.48689,1.44886,6.18789,5.10997,72.4429,97.4423,82.5802
9,B0047,3.42469,4.21457,3.60583,1.43695,1.4,5.98725,4.92206,69.9999,97.4283,82.209
13,B0047,3.60167,4.21456,3.6123,1.45033,1.40575,6.06655,4.93902,70.2877,96.9263,81.4141
17,B0047,3.48202,4.21464,3.64597,1.37104,1.32515,5.72731,4.66645,66.2577,96.6533,81.4771
23,B0047,3.69657,4.21459,3.67893,1.29998,1.26001,5.45548,4.41665,63.0003,96.9253,80.9581
27,B0047,3.56044,4.21459,3.66725,1.26134,1.22809,5.28182,4.28048,61.4044,97.364,81.0417
31,B0047,3.55623,4.21479,3.67062,1.23532,1.18804,5.1766,4.15027,59.402,96.1725,80.1735
35,B0047,3.51881,4.21466,3.62138,1.29796,1.24665,5.43443,4.35563,62.3325,96.0468,80.1489
39,B0047,3.71072,4.21463,3.63265,1.22463,1.19026,5.14453,4.15006,59.5128,97.1932,80.6694
43,B0047,3.56228,4.21459,3.60943,1.1956,1.15556,5.01164,4.02347,57.7778,96.6507,80.2825
47,B0047,3.54723,4.21462,3.58226,1.17598,1.13606,4.92814,3.94918,56.8029,96.6049,80.1352
51,B0047,3.55649,4.21477,3.54056,1.15336,1.12004,4.83498,3.88521,56.0022,97.111,80.3563
57,B0047,3.47614,4.21469,3.55352,1.21834,1.17644,5.10216,4.084,58.8219,96.5604,80.0445
61,B0047,3.71027,4.21467,3.57249,1.20411,1.16923,5.05927,4.06493,58.4614,97.1028,80.3463
67,B0047,3.70637,4.2146,3.55852,1.23007,1.20311,5.16587,4.19694,60.1553,97.808,81.2437
71,B0047,3.48349,4.21456,3.53269,1.19368,1.15671,4.99737,4.01477,57.8354,96.9028,80.3376
3,B0045,3.6764,4.21577,5.15975,1.01061,0.858101,4.246,3.22157,42.9051,84.9091,75.8731
7,B0045,3.7108,4.21763,5.36951,0.949888,0.818368,3.99143,3.0536,40.9184,86.1542,76.5041
11,B0045,3.70856,4.21898,5.52434,0.898251,0.780374,3.77484,2.88861,39.0187,86.8771,76.5228
15,B0045,3.70598,4.21888,5.52474,0.904777,0.764941,3.80201,2.87734,38.2471,84.5448,75.6794
21,B0045,3.72061,4.22231,5.59591,0.835112,0.728726,3.51027,2.7285,36.4363,87.2608,77.7291
25,B0045,3.7148,4.22137,5.64365,0.831258,0.719057,3.49404,2.64913,35.9529,86.5022,75.8186
29,B0045,3.71668,4.22169,5.53223,0.815461,0.694111,3.42746,2.60896,34.7055,85.1188,76.1193
33,B0045,3.72344,4.22501,5.56601,0.79809,0.682203,3.35496,2.56623,34.1101,85.4795,76.4906
37,B0045,3.71571,4.22189,5.54242,0.818639,0.701831,3.44113,2.5912,35.0916,85.7315,75.3008
41,B0045,3.71614,4.22386,5.60922,0.786174,0.667007,3.30488,2.45912,33.3504,84.8421,74.4086
45,B0045,3.71521,4.22563,5.41544,0.786314,0.667936,3.30536,2.47467,33.3968,84.9451,74.8685
49,B0045,3.72768,4.22781,5.35728,0.759455,0.636352,3.1932,2.42229,31.8176,83.7906,75.8577
53,B0045,3.71891,4.22647,4.3024,0.756159,0.628796,3.17913,2.39375,31.4398,83.1565,75.2958
57,B0045,3.71609,4.2271,5.38995,0.78692,0.645407,3.30835,2.47156,32.2704,82.0169,74.7067
61,B0045,3.72779,4.22856,5.68211,0.740148,0.617083,3.11202,2.34414,30.8542,83.373,75.3254
67,B0045,3.72805,4.22759,5.51771,0.785294,0.649581,3.30178,2.46804,32.4791,82.7182,74.7488
71,B0045,3.71968,4.22799,5.52621,0.747712,0.606948,3.14338,2.34954,30.3474,81.174,74.7457
3,B0048,3.40881,4.20073,3.60525,1.4907,1.47829,6.1974,5.11813,73.9146,99.1676,82.585
7,B0048,3.61337,4.20013,3.62714,1.4536,1.44439,6.0662,4.98366,72.2196,99.3665,82.1545
11,B0048,3.50546,4.20108,3.64407,1.40193,1.39027,5.84269,4.78505,69.5135,99.168,81.8981
15,B0048,3.52053,4.20074,3.62539,1.39887,1.39161,5.83037,4.7868,69.5807,99.4815,82.1011
21,B0048,3.57372,4.20002,3.68815,1.32669,1.31841,5.53837,4.51895,65.9205,99.376,81.5934
25,B0048,3.56703,4.20024,3.6745,1.29419,1.28262,5.40398,4.38055,64.1308,99.1058,81.0615
29,B0048,3.58934,4.20109,3.62309,1.26276,1.26316,5.2741,4.29827,63.1582,100.032,81.4976
33,B0048,3.70953,4.20063,3.56433,1.231,1.30371,5.15075,4.43427,65.1854,105.907,86.0897
37,B0048,3.52067,4.20064,3.588,1.28287,1.26734,5.35482,4.31884,63.3669,98.7892,80.6534
41,B0048,3.51919,4.20028,3.5611,1.24367,1.23009,5.19306,4.17872,61.5045,98.9081,80.4673
45,B0048,3.56756,4.20117,3.57987,1.20839,1.19476,5.04701,4.05886,59.7382,98.8723,80.4212
49,B0048,3.71582,4.20187,3.50526,1.18089,1.19156,4.94296,4.02764,59.578,100.904,81.4825
55,B0048,3.70431,4.20055,3.49543,1.25017,1.26588,5.23127,4.30266,63.2942,101.257,82.2489
59,B0048,3.45747,4.20012,3.47961,1.22843,1.22079,5.12445,4.15199,61.0393,99.3776,81.0231
63,B0048,3.44436,4.2001,3.46833,1.22484,1.20955,5.11015,4.11361,60.4774,98.7519,80.4988
69,B0048,3.42544,4.20087,3.45102,1.25043,1.25199,5.21439,4.2659,62.5994,100.125,81.81
1,B0046,3.32148,4.20302,3.4169,1.56472,1.51615,6.5095,5.39342,75.8074,96.8961,82.8546
5,B0046,3.08878,4.20212,3.4099,1.52385,1.45896,6.32061,5.20191,72.9478,95.7412,82.3007
9,B0046,3.11695,4.20201,3.39842,1.49766,1.42829,6.21737,5.09344,71.4147,95.3686,81.9228
13,B0046,3.38529,4.20201,3.38965,1.51671,1.43399,6.32405,5.11445,71.6997,94.5464,80.873
17,B0046,3.13017,4.20281,3.38174,1.45328,1.37233,6.03945,4.90835,68.6167,94.4304,81.2715
23,B0046,3.58465,4.20279,3.35714,1.39482,1.31817,5.83898,4.70522,65.9084,94.5047,80.5829
27,B0046,3.20133,4.20239,3.35415,1.36238,1.28653,5.67408,4.56925,64.3264,94.4327,80.5284
31,B0046,3.20687,4.2019,3.34603,1.33083,1.24212,5.54516,4.43688,62.106,93.3343,80.0135
35,B0046,3.17913,4.20197,3.3541,1.37992,1.27786,5.74517,4.56917,63.8932,92.6044,79.5307
39,B0046,3.65144,4.20403,3.33018,1.31107,1.22925,5.49402,4.38958,61.4626,93.7592,79.8974
43,B0046,3.21576,4.20259,3.32906,1.27986,1.19007,5.33633,4.24449,59.5036,92.9845,79.5396
47,B0046,3.23833,4.20305,3.32175,1.25037,1.15793,5.21672,4.14213,57.8963,92.6066,79.4011
51,B0046,3.24035,4.2042,3.31366,1.22409,1.1381,5.10691,4.04112,56.9048,92.9747,79.1304
57,B0046,3.23454,4.20243,3.32962,1.27117,1.18229,5.30195,4.20955,59.1145,93.0078,79.3962
61,B0046,3.66782,4.20284,3.31256,1.27321,1.17117,5.33703,4.20831,58.5586,91.9859,78.8512
67,B0046,3.65478,4.20297,3.32425,1.29624,1.20505,5.43148,4.31065,60.2523,92.9648,79.3643
71,B0046,3.2569,4.20209,3.3268,1.24423,1.1538,5.18976,4.11568,57.6902,92.7325,79.3037
3,B0032,3.1841,4.20015,0.852154,1.881,1.86549,7.5915,6.25749,93.2747,99.1759,82.4276
7,B0032,3.21562,4.2002,0.851763,1.848,1.83028,7.46481,6.13333,91.5141,99.0411,82.1633
11,B0032,3.26403,4.20002,0.857306,1.81456,1.79952,7.33442,6.04683,89.9758,99.1709,82.4446
15,B0032,3.47307,4.20033,0.849093,1.76609,1.79953,7.15813,6.0066,89.9763,101.893,83.913
19,B0032,3.276,4.2002,0.862887,1.7738,1.75129,7.17655,5.8787,87.5647,98.7314,81.9154
23,B0032,3.31727,4.2,0.861711,1.74328,1.73372,7.05964,5.80825,86.686,99.4516,82.2741
27,B0032,3.34708,4.20039,0.868242,1.72204,1.71158,6.979,5.73427,85.5791,99.3929,82.1647
31,B0032,3.33323,4.20038,0.868321,1.71431,1.69144,6.9464,5.66155,84.5718,98.6654,81.5034
35,B0032,3.483,4.20045,0.866199,1.67288,1.68993,6.79949,5.64056,84.4967,101.019,82.9557
39,B0032,3.3757,4.20063,0.874369,1.6471,1.6358,6.68613,5.46262,81.79,99.3141,81.7008
3,B0029,2.98925,4.20972,0.863326,1.87957,1.81575,7.53813,6.32018,90.7875,96.6045,83.8428
7,B0029,3.02188,4.20962,0.860516,1.85643,1.80134,7.44907,6.24387,90.0672,97.0327,83.8208
11,B0029,3.02462,4.20992,0.860354,1.845,1.76981,7.40722,6.17059,88.4906,95.9245,83.3051
15,B0029,3.33979,4.20927,0.854418,1.79397,1.77978,7.23133,6.15015,88.9892,99.2091,85.0487
19,B0029,3.13384,4.20965,0.866597,1.783,1.73122,7.17089,6.00904,86.5611,97.0961,83.7977
23,B0029,3.14652,4.20975,0.873145,1.7626,1.70102,7.09481,5.91332,85.0511,96.5066,83.3472
27,B0029,3.19021,4.20974,0.871857,1.74263,1.68993,7.01834,5.86044,84.4966,96.9757,83.5017
31,B0029,3.20412,4.20974,0.87964,1.72284,1.66879,6.94491,5.75791,83.4395,96.8626,82.9083
35,B0029,3.39578,4.20998,0.877883,1.67959,1.65455,6.79463,5.73493,82.7274,98.5091,84.4039
39,B0029,3.23732,4.20976,0.87937,1.66686,1.61208,6.73127,5.59434,80.604,96.7137,83.1097
3,B0028,2.74385,4.20022,3.69195,1.7943,1.79299,7.28098,6.39987,89.6496,99.9269,87.8984
7,B0028,3.63276,4.20055,3.69216,0.683585,1.79048,2.84701,6.39791,89.5238,261.924,224.724
11,B0028,2.88624,4.20012,3.69105,1.78493,1.78502,7.24839,6.37614,89.2512,100.006,87.9663
15,B0028,2.68152,4.20029,3.69063,1.77034,1.76968,7.17385,6.32273,88.4841,99.963,88.1359
19,B0028,2.7095,4.20011,3.69475,1.7604,1.75771,7.12967,6.28454,87.8853,99.847,88.1462
23,B0028,2.68417,4.20003,3.69109,1.75271,1.7483,7.09969,6.24649,87.4151,99.7482,87.9826
27,B0028,2.95206,4.20024,3.68581,1.73334,1.71723,7.04611,6.12542,85.8617,99.0707,86.9334
4,B0034,3.16305,4.20191,1.73816,1.72252,1.59674,7.1041,5.24826,79.837,92.6979,73.8765
8,B0034,3.20674,4.20182,1.81764,1.64236,1.4565,6.77916,4.99766,72.8252,88.6836,73.7209
12,B0034,3.21519,4.20187,1.85367,1.61605,1.4321,6.67062,4.91499,71.6052,88.6176,73.6811
16,B0034,3.2084,4.20189,1.86184,1.57894,1.4869,6.52402,4.95284,74.3451,94.1707,75.9169
20,B0034,3.22166,4.2019,1.91254,1.55794,1.4051,6.43488,4.75837,70.2552,90.1896,73.9466
24,B0034,3.21588,4.20272,1.87691,1.63321,1.48552,6.73403,4.95603,74.2759,90.9568,73.5967
28,B0034,3.22214,4.20183,1.89138,1.59516,1.47331,6.58109,4.88937,73.6656,92.3613,74.2941
32,B0034,3.21636,4.20268,1.91392,1.55415,1.45968,6.4245,4.81291,72.9839,93.9215,74.915
36,B0034,3.22567,4.20202,1.93582,1.54181,1.40442,6.37101,4.71073,70.221,91.0889,73.9401
40,B0034,3.22588,4.20228,1.94213,1.55979,1.42358,6.43902,4.70931,71.1788,91.2672,73.1371
44,B0034,3.21976,4.20301,1.88302,1.62135,1.50789,6.68095,4.91726,75.3946,93.002,73.6012
50,B0034,3.21472,4.20291,1.83831,1.60891,1.52022,6.63494,4.98011,76.0109,94.4875,75.0589
54,B0034,3.21741,4.20289,1.9005,1.55731,1.43334,6.43008,4.76653,71.667,92.0397,74.1287
58,B0034,3.21665,4.20301,1.94361,1.56316,1.40974,6.45222,4.65989,70.4869,90.185,72.2215
62,B0034,3.21877,4.20363,1.9208,1.53231,1.45545,6.328,4.74671,72.7724,94.984,75.0112
66,B0034,3.21234,4.20299,1.78392,1.49492,1.5509,6.18977,5.01534,77.5452,103.745,81.0262
70,B0034,3.21182,4.20318,1.92343,1.5544,1.41441,6.42011,4.67404,70.7205,90.9939,72.8032
74,B0034,3.21484,4.20299,1.91626,1.55254,1.42906,6.40871,4.68119,71.4532,92.0471,73.0442
78,B0034,3.21941,4.20376,1.96098,1.48348,1.35772,6.14005,4.53566,67.8858,91.5227,73.87
82,B0034,3.20938,4.20275,1.96443,1.46426,1.34392,6.06874,4.4837,67.1962,91.7816,73.8818
86,B0034,3.21836,4.20319,1.95817,1.47014,1.34025,6.08809,4.47507,67.0126,91.1649,73.5053
90,B0034,3.21953,4.20293,1.95313,1.47532,1.38152,6.10829,4.54625,69.0762,93.6423,74.4275
94,B0034,3.21817,4.20384,1.99019,1.45601,1.30637,6.03238,4.37437,65.3183,89.7222,72.5148
98,B0034,3.2166,4.20305,1.97096,1.48435,1.33376,6.1438,4.42117,66.6882,89.8551,71.9615
102,B0034,3.20787,4.20403,1.9403,1.4682,1.39169,6.084,4.53155,69.5843,94.7888,74.4831
106,B0034,3.21653,4.20246,1.99028,1.44321,1.31059,5.98145,4.35404,65.5294,90.8104,72.7925
110,B0034,3.21634,4.20407,1.95886,1.47128,1.32191,6.09142,4.38714,66.0955,89.8474,72.0216
116,B0034,3.21774,4.20369,1.96614,1.46104,1.35015,6.05044,4.40554,67.5075,92.4105,72.8136
120,B0034,3.21455,4.20287,1.95675,1.45685,1.33308,6.03419,4.39105,66.6542,91.5043,72.7694
124,B0034,3.20426,4.20375,1.95985,1.44164,1.32494,5.98033,4.36516,66.2468,91.9049,72.9919
128,B0034,3.21741,4.20223,1.95129,1.43466,1.30417,5.94653,4.34256,65.2086,90.9045,73.0268
132,B0034,3.21622,4.20308,1.9404,1.45593,1.32869,6.029,4.3698,66.4345,91.2608,72.4797
136,B0034,3.21497,4.20436,1.9539,1.48442,1.3548,6.14082,4.43008,67.7402,91.2682,72.1414
140,B0034,3.20683,4.2036,1.96018,1.42611,1.34184,5.9186,4.39529,67.0922,94.0912,74.2623
144,B0034,3.21572,4.20365,1.9646,1.418,1.29845,5.88013,4.28801,64.9227,91.5691,72.9237
148,B0034,3.21789,4.2039,1.93988,1.44855,1.33331,5.99731,4.35455,66.6656,92.0447,72.6084
152,B0034,3.219,4.20358,1.94444,1.41349,1.29241,5.86224,4.25715,64.6204,91.434,72.6199
156,B0034,3.18853,4.20313,1.819,1.56855,1.45468,6.48232,4.74699,72.7338,92.7404,73.2297
160,B0034,3.20757,4.20301,1.90331,1.48599,1.38102,6.15275,4.50035,69.051,92.9361,73.1438
164,B0034,3.20758,4.20308,1.90904,1.46175,1.3364,6.05861,4.40053,66.8198,91.4242,72.6327
168,B0034,3.21124,4.20313,1.92288,1.45645,1.34499,6.03267,4.39068,67.2495,92.3469,72.7817
172,B0034,3.21012,4.20314,1.92371,1.42803,1.31902,5.92176,4.35205,65.951,92.3664,73.4925
176,B0034,3.19621,4.20297,1.88714,1.42397,1.363,5.91167,4.44459,68.1501,95.7183,75.1833
180,B0034,3.21055,4.20411,1.93457,1.42285,1.28407,5.90084,4.24136,64.2033,90.2461,71.8772
184,B0034,3.2111,4.20395,1.93645,1.41892,1.27601,5.8861,4.21161,63.8006,89.9282,71.5518
188,B0034,3.21241,4.20283,1.92898,1.3979,1.26559,5.80172,4.17951,63.2794,90.5349,72.0392
192,B0034,3.19958,4.20398,1.87829,1.40167,1.34598,5.82452,4.35467,67.2991,96.0269,74.7646
196,B0034,3.21044,4.20303,1.86842,1.41177,1.28026,5.85745,4.21706,64.013,90.6846,71.9948
3,B0033,3.19375,4.20961,2.37927,1.20028,1.25294,5.0213,3.92621,62.647,104.387,78.1911
7,B0033,3.16407,4.20967,1.54192,1.34553,1.71317,5.62135,5.40996,85.6585,127.323,96.2395
11,B0033,3.15375,4.20971,1.6723,1.75819,1.62557,7.26887,5.35943,81.2785,92.4568,73.7312
15,B0033,3.20415,4.20895,1.70245,1.74761,1.58977,7.20784,5.35464,79.4885,90.9682,74.2891
19,B0033,3.21443,4.20979,1.72988,1.73274,1.58697,7.13955,5.30937,79.3487,91.5878,74.3656
23,B0033,3.17894,4.20965,1.70199,1.77854,1.65862,7.3158,5.4683,82.9311,93.2575,74.7465
27,B0033,3.20965,4.20969,1.72738,1.73545,1.65127,7.15153,5.38706,82.5635,95.1493,75.3274
31,B0033,3.22114,4.20974,1.73689,1.70012,1.61254,7.00651,5.28723,80.6268,94.8483,75.4616
35,B0033,3.22302,4.2099,1.76209,1.68925,1.58772,6.96317,5.21653,79.3862,93.9896,74.916
39,B0033,3.2234,4.20994,1.74978,1.70098,1.60994,7.00211,5.27378,80.4969,94.6476,75.317
43,B0033,3.21161,4.20971,1.73097,1.7184,1.63481,7.07881,5.35256,81.7406,95.1356,75.6138
49,B0033,3.21049,4.20995,1.73746,1.6956,1.608,6.98525,5.29471,80.4001,94.8338,75.7985
53,B0033,3.21509,4.2101,1.76377,1.67771,1.58759,6.91414,5.18653,79.3793,94.6281,75.0135
57,B0033,3.21393,4.20988,1.77324,1.67148,1.59307,6.88641,5.17461,79.6535,95.3091,75.1423
61,B0033,3.20605,4.20987,1.78794,1.62168,1.55595,6.70528,5.06938,77.7975,95.9468,75.6027
65,B0033,3.21543,4.20971,1.81407,1.61104,1.50519,6.65702,4.92637,75.2597,93.43,74.0026
69,B0033,3.19418,4.20986,1.76866,1.67234,1.55524,6.8987,5.08531,77.7619,92.9979,73.7141
73,B0033,3.19187,4.20993,1.76729,1.6448,1.56599,6.79272,5.08251,78.2996,95.2086,74.8229
77,B0033,3.17809,4.20971,1.7915,1.60804,1.49549,6.66341,4.88604,74.7746,93.001,73.3265
81,B0033,3.19484,4.20975,1.81312,1.59609,1.46761,6.60818,4.80987,73.3805,91.9502,72.7866
85,B0033,3.18602,4.20989,1.82179,1.5789,1.45271,6.54375,4.75074,72.6355,92.0075,72.5997
89,B0033,3.18327,4.20998,1.8215,1.56708,1.46668,6.49768,4.74242,73.3338,93.5931,72.9863
93,B0033,3.18293,4.21016,1.82223,1.56119,1.42053,6.47471,4.66784,71.0266,90.9906,72.0933
97,B0033,3.17208,4.20976,1.82515,1.55334,1.45403,6.44795,4.70063,72.7013,93.6064,72.9012
101,B0033,3.18085,4.20973,1.82659,1.53487,1.43136,6.37227,4.67132,71.568,93.2564,73.307
105,B0033,3.18021,4.21001,1.85791,1.52043,1.39791,6.31509,4.55918,69.8953,91.9413,72.1951
109,B0033,3.1894,4.21,1.84083,1.54601,1.41036,6.40864,4.6127,70.5178,91.2255,71.9763
115,B0033,3.18205,4.20994,1.87792,1.51422,1.3946,6.28228,4.54634,69.73,92.1,72.3678
119,B0033,3.15673,4.2098,1.87759,1.49832,1.36169,6.23235,4.46214,68.0843,90.881,71.5965
123,B0033,3.17472,4.20974,1.88,1.48183,1.35522,6.15845,4.43586,67.7611,91.4562,72.0288
127,B0033,3.16154,4.21009,1.88011,1.47581,1.34776,6.13806,4.40336,67.3881,91.3236,71.7385
131,B0033,3.14474,4.20996,1.85201,1.50082,1.35743,6.24054,4.4571,67.8713,90.4458,71.4217
135,B0033,3.16762,4.20972,1.88293,1.52133,1.38656,6.31853,4.51171,69.3279,91.1412,71.4043
139,B0033,3.09587,4.21002,9.48706,1.11473,0.298662,4.68279,0.981001,14.9331,26.7924,20.9491
143,B0033,3.30616,4.33609,11.8319,0.256311,0.235504,1.08403,0.778787,11.7752,91.8823,71.8416
147,B0033,3.24048,4.24861,1.67776,0.447135,1.46147,1.88651,4.50256,73.0735,326.852,238.671
151,B0033,3.15602,4.20977,1.85033,1.48534,1.3557,6.17767,4.39963,67.7852,91.2724,71.2183
155,B0033,3.13727,4.21001,2.1315,1.4659,1.18889,6.10937,3.85188,59.4444,81.1031,63.0487
159,B0033,3.14987,4.21011,1.80834,1.56033,1.45983,6.47361,4.6773,72.9915,93.559,72.2518
163,B0033,3.16452,4.20994,1.82248,1.53338,1.41839,6.36183,4.58618,70.9196,92.5011,72.0891
167,B0033,3.17311,4.20982,1.85117,1.49994,1.41377,6.22692,4.5561,70.6885,94.2554,73.1679
171,B0033,3.16019,4.21011,1.86124,1.4692,1.36975,6.11322,4.42283,68.4876,93.2309,72.3486
175,B0033,3.18162,4.21001,1.86583,1.47122,1.35995,6.11063,4.40621,67.9976,92.4374,72.1074
179,B0033,3.17799,4.21002,1.86719,1.47024,1.34986,6.10959,4.37315,67.4931,91.8121,71.5784
183,B0033,3.18119,4.20986,1.86915,1.46732,1.34121,6.0981,4.3429,67.0604,91.405,71.2174
187,B0033,3.16498,4.20995,1.88549,1.44764,1.31775,6.02642,4.2723,65.8874,91.0275,70.8928
191,B0033,3.18779,4.21001,1.87823,1.44684,1.30466,6.01531,4.24549,65.2331,90.1731,70.578
195,B0033,3.18884,4.21025,1.85585,1.44106,1.31242,5.98755,4.26621,65.621,91.0734,71.2513
2,B0030,3.12503,4.20182,0.894672,1.824,1.76197,7.32437,6.08219,88.0985,96.599,83.0404
6,B0030,3.10438,4.20183,0.885856,1.8142,1.7491,7.28153,6.03777,87.4552,96.4121,82.9189
10,B0030,3.3537,4.20263,0.888214,1.7562,1.71858,7.08194,5.93809,85.9289,97.8576,83.8484
14,B0030,3.26245,4.20265,0.896572,1.72326,1.67184,6.93995,5.7827,83.592,97.0159,83.3247
18,B0030,3.24129,4.20263,0.89805,1.72302,1.66899,6.93253,5.7782,83.4493,96.8638,83.3491
22,B0030,3.27668,4.20183,0.90681,1.69693,1.64848,6.83467,5.67366,82.4241,97.1449,83.013
26,B0030,3.27145,4.20266,0.908356,1.699,1.63851,6.84302,5.64212,81.9257,96.4398,82.4508
30,B0030,3.38986,4.20286,0.908899,1.64059,1.61384,6.63009,5.5499,80.6919,98.3696,83.7077
34,B0030,3.313,4.20274,0.911029,1.64004,1.58461,6.62245,5.45122,79.2307,96.6201,82.3142
38,B0030,3.32144,4.20195,0.912621,1.61451,1.57071,6.51892,5.40541,78.5353,97.2871,82.9187
2,B0027,2.9784,4.21463,3.27336,1.86059,1.81286,7.66867,5.85871,90.643,97.4348,76.398
6,B0027,3.0164,4.21459,3.21433,1.86192,1.81652,7.66377,5.92517,90.826,97.5617,77.3141
10,B0027,3.01325,4.21473,3.20806,1.85778,1.80218,7.64404,5.80744,90.1089,97.0071,75.9734
14,B0027,3.04509,4.2146,3.20662,1.84758,1.812,7.59304,5.85208,90.6,98.0744,77.0716
18,B0027,2.94978,4.21469,3.18267,1.8581,1.80915,7.62638,5.8679,90.4577,97.3657,76.9421
22,B0027,3.50179,4.21468,3.21105,0.928512,1.8088,3.88645,5.80319,90.4402,194.807,149.318
26,B0027,3.05123,4.21484,3.18439,1.82535,1.78731,7.50628,5.76386,89.3655,97.9161,76.7872
3,B0036,2.9319,4.20025,1.7466,1.80829,1.80439,7.3981,6.25132,90.2194,99.784,84.4989
7,B0036,2.97364,4.20033,1.74417,1.7811,1.78909,7.28821,6.19126,89.4543,100.448,84.949
11,B0036,3.14801,4.20031,1.74516,1.77017,1.78297,7.26521,6.17277,89.1486,100.723,84.9634
15,B0036,3.00883,4.20079,1.74865,1.7609,1.77804,7.20245,6.16659,88.9021,100.973,85.6181
19,B0036,2.98912,4.20053,1.74876,1.76121,1.77092,7.19883,6.14088,88.5462,100.552,85.3038
23,B0036,2.92184,4.20053,1.75284,1.79595,1.79091,7.32913,6.21387,89.5454,99.7195,84.7832
27,B0036,3.1255,4.20044,1.7538,1.77571,1.77689,7.27423,6.16747,88.8443,100.066,84.7852
31,B0036,2.97082,4.20027,1.7536,1.76734,1.75928,7.22171,6.10416,87.964,99.5438,84.5252
35,B0036,2.98587,4.20049,1.7524,1.75721,1.75456,7.18204,6.0832,87.728,99.849,84.7002
39,B0036,2.97071,4.20005,1.75725,1.76424,1.75362,7.20143,6.09544,87.6809,99.398,84.642
43,B0036,3.12191,4.20018,1.7598,1.76178,1.76511,7.20936,6.14453,88.2556,100.189,85.23
49,B0036,2.95253,4.2005,1.75476,1.7635,1.76174,7.20274,6.11805,88.0869,99.9003,84.9406
53,B0036,2.96169,4.20062,1.75482,1.75076,1.75054,7.14853,6.07812,87.5268,99.987,85.0261
57,B0036,2.94821,4.20025,1.75707,1.75385,1.75073,7.1572,6.08515,87.5363,99.8219,85.0213
61,B0036,3.16563,4.20049,1.75487,1.73236,1.74286,7.1048,6.0498,87.143,100.606,85.1509
65,B0036,2.97975,4.20017,1.75109,1.72862,1.7273,7.06626,5.98231,86.3652,99.9239,84.6602
69,B0036,2.92464,4.20046,1.75366,1.74805,1.74427,7.13307,6.04928,87.2136,99.7836,84.8062
73,B0036,2.9595,4.20096,1.75613,1.73712,1.74321,7.09247,6.05314,87.1607,100.35,85.346
77,B0036,3.15307,4.20045,1.74975,1.72001,1.72442,7.05538,5.9649,86.221,100.257,84.5439
81,B0036,2.99524,4.20059,1.74977,1.71578,1.7112,7.01646,5.91868,85.5601,99.7334,84.3543
85,B0036,2.99961,4.20014,1.74836,1.70988,1.70646,6.99498,5.89622,85.3231,99.8001,84.2921
89,B0036,3.0186,4.20053,1.74977,1.70396,1.70796,6.97212,5.90631,85.3981,100.235,84.7133
93,B0036,3.00487,4.20044,1.74713,1.70313,1.69346,6.96964,5.84576,84.673,99.4325,83.8746
97,B0036,3.19588,4.20005,1.74983,1.70006,1.69979,6.97662,5.87629,84.9896,99.9842,84.2283
101,B0036,3.0473,4.20063,1.74952,1.68638,1.69289,6.90673,5.85064,84.6443,100.386,84.7093
105,B0036,3.03765,4.20017,1.74452,1.68376,1.68505,6.89582,5.80633,84.2523,100.077,84.2008
109,B0036,3.01256,4.20016,1.75031,1.70017,1.68419,6.95365,5.82115,84.2093,99.0598,83.7136
115,B0036,3.01142,4.20056,1.75086,1.69291,1.68028,6.92542,5.80983,84.0139,99.254,83.8915
119,B0036,3.23354,4.20063,1.74926,1.66735,1.66424,6.85247,5.74793,83.2121,99.8136,83.8812
123,B0036,3.05339,4.20061,1.74693,1.66591,1.66035,6.82504,5.72576,83.0176,99.6661,83.8934
127,B0036,3.08588,4.20026,1.74674,1.65395,1.65326,6.77884,5.69977,82.6629,99.9581,84.0818
131,B0036,3.03828,4.20074,1.75042,1.67479,1.66581,6.85438,5.75526,83.2906,99.4637,83.9646
135,B0036,3.17791,4.20045,1.75297,1.68204,1.68077,6.90319,5.81591,84.0387,99.9249,84.2497
139,B0036,3.06342,4.20017,1.74656,1.65937,1.64686,6.7981,5.676,82.3431,99.2463,83.4939
143,B0036,3.07836,4.20007,1.74638,1.64997,1.64084,6.76132,5.65335,82.0418,99.4466,83.6131
147,B0036,3.04843,4.20072,1.75206,1.65413,1.65456,6.77623,5.71876,82.7282,100.026,84.3944
151,B0036,3.10043,4.20046,1.74429,1.62732,1.62482,6.67501,5.59024,81.241,99.8466,83.7488
155,B0036,3.30806,4.20082,1.75425,1.61684,1.6671,6.65878,5.76929,83.3552,103.109,86.6419
159,B0036,2.98429,4.20086,1.75214,1.67832,1.66649,6.86199,5.75964,83.3245,99.2949,83.9354
163,B0036,2.9916,4.20034,1.75085,1.67066,1.65222,6.83396,5.70505,82.6111,98.8961,83.481
167,B0036,3.02494,4.20055,1.75335,1.65833,1.64817,6.78776,5.69833,82.4084,99.3875,83.95
171,B0036,3.23921,4.20066,1.74643,1.63963,1.62993,6.74318,5.61192,81.4963,99.4084,83.2236
175,B0036,3.04259,4.20092,1.747,1.63608,1.62202,6.70283,5.58596,81.1009,99.1406,83.3373
179,B0036,3.06755,4.20026,1.74731,1.62673,1.61242,6.66982,5.55308,80.6212,99.1208,83.2569
183,B0036,3.07559,4.20054,1.74474,1.61659,1.60682,6.63072,5.52464,80.341,99.3957,83.3188
187,B0036,3.30622,4.20046,1.74482,1.60159,1.59203,6.59931,5.4737,79.6014,99.4028,82.9435
191,B0036,3.11711,4.2005,1.74341,1.57934,1.57299,6.48663,5.40173,78.6494,99.5979,83.2749
195,B0036,3.09315,4.20078,1.74557,1.58522,1.56295,6.50683,5.37308,78.1473,98.5949,82.5761
2,B0025,2.91343,4.20881,3.17925,1.90141,1.84711,7.75044,6.29311,92.3556,97.1441,81.1969
6,B0025,2.94408,4.20965,3.17624,1.89024,1.83986,7.70015,6.28305,91.9932,97.335,81.5964
10,B0025,2.99717,4.20975,3.20843,1.87195,1.82536,7.61939,6.20396,91.2678,97.5109,81.4233
14,B0025,3.00368,4.20997,3.24183,1.85925,1.8109,7.56512,6.17673,90.5451,97.3995,81.6475
18,B0025,2.92361,4.20994,3.20518,1.85854,1.80777,7.56346,6.16609,90.3886,97.2685,81.5248
22,B0025,3.44203,4.20944,3.22387,0.94697,1.80741,3.93504,6.12997,90.3705,190.862,155.779
26,B0025,2.98827,4.20972,3.23881,1.82745,1.78548,7.4371,6.06349,89.2741,97.7033,81.5303
3,B0031,3.15666,4.21464,0.883619,1.84612,1.80444,7.41252,6.24297,90.2219,97.7422,84.2219
7,B0031,3.16331,4.21463,0.875722,1.83375,1.80133,7.36261,6.20306,90.0663,98.2319,84.2508
11,B0031,3.1326,4.21462,0.871148,1.83829,1.78136,7.37794,6.15852,89.0682,96.9031,83.4721
15,B0031,3.42602,4.21462,0.882771,1.78573,1.73523,7.19645,5.99043,86.7617,97.1721,83.2415
19,B0031,3.20114,4.21463,0.871563,1.78511,1.74431,7.17649,6.03369,87.2157,97.7145,84.0758
23,B0031,3.22372,4.21473,0.871749,1.76806,1.72684,7.11215,5.97429,86.3421,97.6685,84.0011
27,B0031,3.23843,4.21466,0.872235,1.76049,1.71696,7.08286,5.94349,85.8482,97.5277,83.9137
31,B0031,3.25954,4.21471,0.872306,1.74276,1.70935,7.01593,5.87467,85.4674,98.083,83.7332
35,B0031,3.49023,4.21465,0.87138,1.71143,1.69571,6.91216,5.86343,84.7853,99.0813,84.8278
39,B0031,3.27576,4.2146,0.873566,1.69886,1.6673,6.84771,5.73544,83.3649,98.1423,83.7571
3,B0049,3.51017,4.20957,1.92686,1.6635,1.36437,6.89287,4.81703,68.2187,82.0181,69.8843
9,B0049,3.71085,4.20895,2.63495,1.11117,0.905328,4.65333,3.26075,45.2664,81.4755,70.0733
13,B0049,3.73185,4.20969,1.52012,1.00606,0.807121,4.22244,3.16896,40.3561,80.2263,75.0505
19,B0049,3.72441,4.2098,1.53346,0.939048,0.75851,3.93751,2.84486,37.9255,80.7743,72.2503
23,B0049,3.58778,4.20984,1.52136,0.943385,0.718647,3.9329,2.69128,35.9323,76.1774,68.4299
2,B0050,3.4293,4.20164,1.63837,1.80047,1.60164,7.44405,5.7036,80.0818,88.9564,76.6196
9,B0050,3.59517,4.20175,1.57649,1.45442,1.36074,6.04317,5.20903,68.037,93.5587,86.197
13,B0050,0.533189,4.93787,17.8405,0.0105773,0.0765835,0.0429305,0.290815,3.82918,724.038,677.41
2,B0051,3.71902,4.21461,2.31266,1.41992,1.22889,5.92865,4.22282,61.4447,86.5465,71.2274
8,B0051,3.76255,4.21456,2.52929,0.949466,0.889791,3.97619,3.14905,44.4895,93.7149,79.1977
12,B0051,3.76704,4.21464,2.9369,0.875295,0.835268,3.6671,2.96919,41.7634,95.4271,80.9685
18,B0051,3.74363,4.21459,2.58087,0.819994,0.773177,3.42574,2.70262,38.6589,94.2906,78.8916
22,B0051,3.71717,4.21474,2.06664,0.783857,0.701458,3.26942,2.48839,35.0729,89.488,76.111
1,B0006,2.88968,4.20702,1.78944,2.06379,2.02514,8.35137,7.23347,101.257,98.1271,86.6142
5,B0006,2.97044,4.2069,1.79566,2.04051,2.0139,8.26021,7.21764,100.695,98.6956,87.3783
9,B0006,3.03907,4.20674,1.79138,1.99205,1.95723,8.06696,6.99703,97.8615,98.2523,86.7368
13,B0006,3.08483,4.20629,1.79308,1.95221,1.91189,7.91541,6.84071,95.5945,97.9345,86.4227
17,B0006,3.09716,4.20594,1.79003,1.90881,1.86757,7.74773,6.671,93.3785,97.8394,86.1026
21,B0006,3.0382,4.20627,1.79349,1.99856,1.94582,8.10032,6.96352,97.2908,97.3606,85.9661
25,B0006,3.16529,4.20481,1.79677,1.91778,1.87867,7.79622,6.71842,93.9337,97.9609,86.1753
29,B0006,3.20206,4.20325,1.79788,1.87887,1.85723,7.65232,6.64503,92.8614,98.8483,86.8368
33,B0006,3.18061,4.20287,1.80007,1.8683,1.83925,7.60626,6.56662,91.9625,98.4453,86.3318
37,B0006,3.21285,4.20178,1.82217,1.80317,1.781,7.35608,6.33875,89.0502,98.7708,86.1702
41,B0006,3.23247,4.20208,1.84446,1.75774,1.73949,7.18069,6.18135,86.9746,98.9618,86.0829
45,B0006,3.23787,4.20203,1.84717,1.74205,1.71333,7.12573,6.07123,85.6663,98.3512,85.2016
49,B0006,3.17056,4.20187,1.80847,1.81593,1.77576,7.39902,6.31795,88.7881,97.788,85.3891
53,B0006,3.23673,4.20297,1.8566,1.71985,1.6976,7.03523,6.01334,84.8798,98.706,85.4747
57,B0006,3.25254,4.20167,1.88165,1.6683,1.65112,6.83915,5.82073,82.5561,98.9705,85.1089
61,B0006,3.26513,4.20263,1.91214,1.62153,1.60352,6.65808,5.62917,80.1762,98.8896,84.5465
65,B0006,3.26988,4.20182,1.93399,1.58585,1.56714,6.52017,5.48485,78.3569,98.8203,84.1213
69,B0006,3.2746,4.20193,1.95538,1.54434,1.52531,6.35838,5.33638,76.2657,98.7679,83.9267
73,B0006,3.28253,4.20176,1.96378,1.52499,1.50939,6.28799,5.25207,75.4696,98.9771,83.5254
77,B0006,3.31531,4.2018,1.9259,1.48456,1.53029,6.14178,5.34769,76.5144,103.08,87.0708
81,B0006,3.28626,4.20193,1.97498,1.49474,1.47846,6.17472,5.12488,73.923,98.9107,82.9978
85,B0006,3.28321,4.20161,1.98057,1.47187,1.45192,6.08535,5.01283,72.5962,98.6447,82.3754
91,B0006,3.28441,4.20167,1.92185,1.55411,1.51471,6.40687,5.26699,75.7353,97.4643,82.2085
95,B0006,3.29711,4.20197,1.95818,1.48153,1.46276,6.12333,5.06127,73.138,98.7328,82.6555
99,B0006,3.30009,4.2019,1.97699,1.45075,1.43121,6.00203,4.95504,71.5605,98.6534,82.5561
103,B0006,3.30874,4.20169,1.9618,1.42534,1.45226,5.90692,5.02766,72.6128,101.889,85.1147
107,B0006,3.30217,4.20296,1.99409,1.42312,1.40492,5.89314,4.83691,70.2459,98.7208,82.0769
111,B0006,3.30175,4.20177,2.00202,1.39789,1.38384,5.79309,4.75357,69.1919,98.9944,82.0558
115,B0006,3.30217,4.20205,2.01112,1.38269,1.36826,5.73218,4.69337,68.4129,98.9561,81.8775
119,B0006,3.30324,4.20166,1.99715,1.36706,1.38416,5.66838,4.75704,69.208,101.251,83.9224
123,B0006,3.30189,4.20212,2.00489,1.37902,1.35732,5.71837,4.66878,67.8658,98.4261,81.6453
127,B0006,3.29978,4.20172,2.02972,1.35237,1.33124,5.61256,4.56969,66.5618,98.437,81.419
131,B0006,3.29945,4.20196,2.04943,1.33172,1.31565,5.53,4.49428,65.7824,98.7935,81.2707
135,B0006,3.30101,4.2019,2.05052,1.33579,1.31012,5.54494,4.49501,65.5059,98.0784,81.065
139,B0006,3.30171,4.20184,2.06763,1.30908,1.28951,5.43651,4.41698,64.4753,98.5049,81.2466
143,B0006,3.30039,4.20182,2.08903,1.28983,1.27413,5.3599,4.34349,63.7064,98.7829,81.0368
147,B0006,3.29915,4.20181,2.10531,1.27127,1.25323,5.28629,4.28053,62.6616,98.5811,80.9742
151,B0006,3.30255,4.20187,2.10881,1.30454,1.26354,5.41807,4.30933,63.177,96.8569,79.5363
155,B0006,3.30011,4.20179,2.16508,1.24357,1.22174,5.17157,4.15249,61.087,98.2442,80.2945
159,B0006,3.3013,4.20175,2.19646,1.21123,1.19059,5.0394,4.05669,59.5295,98.2957,80.4994
163,B0006,3.30229,4.20218,2.25107,1.17155,1.15382,4.87581,3.92447,57.6909,98.4866,80.4885
167,B0006,3.31445,4.20188,2.21918,1.19653,1.18568,4.98041,4.0531,59.2838,99.0926,81.3809
4,B0005,3.06377,4.21287,1.93983,1.86281,1.83465,7.54759,6.55223,91.7323,98.4879,86.8123
8,B0005,3.08242,4.21314,1.91639,1.85149,1.82477,7.49858,6.52911,91.2387,98.5573,87.0712
12,B0005,3.09262,4.21272,1.88997,1.83923,1.81375,7.44786,6.49185,90.6876,98.6148,87.164
16,B0005,3.10545,4.21291,1.87114,1.82928,1.80258,7.41054,6.44958,90.129,98.5403,87.0325
20,B0005,3.06837,4.21344,1.89501,1.87695,1.84742,7.60378,6.61116,92.3709,98.4264,86.9457
24,B0005,3.10846,4.21269,1.85933,1.85445,1.82558,7.51902,6.52792,91.2791,98.4432,86.8187
28,B0005,3.11782,4.2129,1.87242,1.84229,1.80277,7.47316,6.45156,90.1383,97.8544,86.3297
32,B0005,3.13536,4.20887,1.84614,1.83438,1.8199,7.438,6.51089,90.9952,99.2108,87.5354
36,B0005,3.19955,4.20897,1.85656,1.80248,1.78844,7.32014,6.39319,89.4222,99.2211,87.3371
40,B0005,3.23646,4.20965,1.85585,1.77595,1.76787,7.22156,6.31485,88.3936,99.545,87.4443
44,B0005,3.246,4.20999,1.85419,1.76586,1.75173,7.184,6.24615,87.5865,99.1998,86.9452
48,B0005,3.13361,4.20908,1.84816,1.80816,1.78319,7.32609,6.37964,89.1595,98.6189,87.0812
52,B0005,3.25316,4.20957,1.84866,1.74994,1.74172,7.11921,6.20865,87.0859,99.5303,87.2098
56,B0005,3.29121,4.20956,1.86359,1.7198,1.71053,7.00647,6.089,85.5267,99.4613,86.9055
60,B0005,3.30827,4.20967,1.87427,1.6972,1.6849,6.92064,5.99219,84.2451,99.2755,86.5843
64,B0005,3.32318,4.20891,1.8917,1.67121,1.65901,6.82005,5.89686,82.9507,99.2703,86.4635
68,B0005,3.34099,4.20973,1.90057,1.64136,1.63274,6.70823,5.78943,81.6368,99.4744,86.3034
72,B0005,3.34856,4.20973,1.91147,1.61347,1.60656,6.60132,5.68743,80.3282,99.5718,86.156
76,B0005,3.35252,4.20891,1.92125,1.58754,1.58494,6.50216,5.59827,79.2472,99.8362,86.0986
80,B0005,3.35004,4.20959,1.93367,1.56698,1.55977,6.42443,5.503,77.9883,99.5398,85.6575
84,B0005,3.35083,4.20886,1.94034,1.55107,1.53824,6.36068,5.42082,76.9118,99.1728,85.2239
88,B0005,3.35286,4.20963,1.95454,1.52497,1.51749,6.25832,5.3456,75.8743,99.5096,85.4158
94,B0005,3.35406,4.20887,1.95401,1.52952,1.51696,6.27492,5.34371,75.8479,99.1787,85.1599
98,B0005,3.3534,4.20953,1.96837,1.50325,1.49084,6.17256,5.24532,74.5422,99.1746,84.978
102,B0005,3.35343,4.20906,1.96423,1.47718,1.4859,6.0708,5.21762,74.2952,100.59,85.9462
106,B0005,3.35378,4.20917,1.97483,1.4616,1.4539,6.00613,5.10074,72.6951,99.473,84.9256
110,B0005,3.35278,4.20963,1.99675,1.4518,1.43867,5.97,5.04523,71.9335,99.0954,84.5097
114,B0005,3.3514,4.20969,2.00399,1.43026,1.42292,5.88514,4.98492,71.146,99.4869,84.7035
118,B0005,3.35043,4.20899,2.0117,1.41333,1.4076,5.81904,4.92753,70.3799,99.5946,84.6794
122,B0005,3.35201,4.20895,2.01214,1.41931,1.40698,5.84241,4.92403,70.3491,99.1317,84.2808
126,B0005,3.3473,4.20975,2.01839,1.39256,1.38623,5.73825,4.83901,69.3114,99.545,84.329
130,B0005,3.34562,4.20893,2.02505,1.37623,1.37051,5.67497,4.77527,68.5254,99.5844,84.1461
134,B0005,3.3466,4.2098,2.0361,1.38905,1.36985,5.71898,4.78283,68.4925,98.6176,83.6308
138,B0005,3.34412,4.20968,2.04176,1.35785,1.3547,5.60122,4.71912,67.7352,99.7681,84.2516
142,B0005,3.34194,4.20971,2.04916,1.34145,1.33891,5.53828,4.65489,66.9457,99.8112,84.0493
146,B0005,3.33888,4.20925,2.06755,1.32643,1.31817,5.47996,4.57587,65.9085,99.3776,83.502
150,B0005,3.35301,4.20961,2.02634,1.32893,1.36012,5.50204,4.73862,68.0061,102.347,86.1248
154,B0005,3.33896,4.2097,2.06066,1.32569,1.31863,5.47614,4.57891,65.9317,99.4674,83.6156
158,B0005,3.33801,4.20905,2.07034,1.31028,1.30303,5.4156,4.51965,65.1516,99.4469,83.4561
162,B0005,3.33667,4.2097,2.06762,1.29994,1.29807,5.37425,4.49509,64.9037,99.8567,83.6413
166,B0005,3.33503,4.20959,2.05523,1.28714,1.30902,5.32283,4.54712,65.4508,101.7,85.4268
3,B0007,2.9468,4.21477,1.87278,1.91312,1.88077,7.74154,6.77072,94.0385,98.3093,87.4596
7,B0007,2.99928,4.21468,1.86195,1.90357,1.88151,7.69811,6.75017,94.0754,98.8412,87.6861
11,B0007,3.49185,4.21464,1.83587,1.68988,1.85965,6.88095,6.708,92.9826,110.046,97.4866
15,B0007,3.04843,4.21494,1.82151,1.88003,1.85874,7.60275,6.67016,92.9368,98.8672,87.7335
19,B0007,3.27151,4.21475,1.86002,1.86386,1.88078,7.57804,6.78423,94.039,100.908,89.5249
23,B0007,2.99319,4.21463,1.83451,1.90607,1.8702,7.71133,6.73947,93.51,98.1179,87.397
27,B0007,3.08036,4.21481,1.81335,1.88402,1.85917,7.62944,6.65766,92.9583,98.6808,87.2627
31,B0007,3.04026,4.21468,1.80383,1.88403,1.86282,7.62059,6.70272,93.1411,98.8744,87.9553
35,B0007,3.17625,4.2149,1.8022,1.8535,1.83716,7.51176,6.60377,91.8581,99.1184,87.9125
39,B0007,3.23275,4.21457,1.80095,1.83206,1.81138,7.43455,6.50708,90.5691,98.8713,87.5249
43,B0007,3.23101,4.21471,1.79994,1.82949,1.80626,7.43028,6.48397,90.3132,98.7304,87.264
47,B0007,3.34309,4.21471,1.80443,1.79317,1.81508,7.29516,6.53187,90.7538,101.221,89.5371
51,B0007,3.26482,4.21472,1.8046,1.80571,1.78034,7.32843,6.39843,89.0172,98.595,87.3097
55,B0007,3.32631,4.21473,1.80909,1.77276,1.74965,7.20527,6.29317,87.4824,98.6964,87.3411
59,B0007,3.35393,4.21463,1.8166,1.75322,1.72856,7.13276,6.2121,86.4282,98.5938,87.0926
63,B0007,3.38746,4.21467,1.81971,1.72758,1.70365,7.03576,6.11522,85.1826,98.6152,86.9163
67,B0007,3.41172,4.21474,1.82961,1.70321,1.68307,6.94452,6.02164,84.1537,98.8179,86.7107
71,B0007,3.42573,4.21472,1.83829,1.6818,1.66227,6.8625,5.94086,83.1133,98.8383,86.5699
75,B0007,3.43649,4.21469,1.84081,1.66162,1.63641,6.78593,5.85723,81.8207,98.4829,86.3143
79,B0007,3.43875,4.21465,1.83818,1.64797,1.62121,6.73598,5.79275,81.0607,98.3763,85.9972
83,B0007,3.44254,4.21473,1.85039,1.63115,1.61087,6.66789,5.74075,80.5433,98.7567,86.0955
87,B0007,3.45215,4.21465,1.84926,1.61127,1.59581,6.59206,5.68137,79.7903,99.0403,86.185
93,B0007,3.42888,4.21466,1.84362,1.62342,1.59497,6.63661,5.69853,79.7487,98.248,85.8651
97,B0007,3.44528,4.21465,1.84795,1.59909,1.57522,6.54346,5.62238,78.7609,98.5073,85.9237
101,B0007,3.44961,4.21479,1.84615,1.58423,1.55963,6.48682,5.55979,77.9817,98.4477,85.709
105,B0007,3.44587,4.21478,1.8484,1.5839,1.55976,6.48375,5.54724,77.9878,98.4754,85.556
109,B0007,3.45497,4.21464,1.853,1.56332,1.54459,6.40354,5.48839,77.2297,98.802,85.7086
113,B0007,3.4607,4.21461,1.84939,1.54624,1.52909,6.33725,5.44118,76.4546,98.8912,85.8604
117,B0007,3.46361,4.21463,1.84902,1.53261,1.51361,6.28586,5.38217,75.6803,98.7601,85.6234
121,B0007,3.45222,4.21467,1.84408,1.5511,1.52362,6.35516,5.42126,76.1812,98.2289,85.3049
125,B0007,3.46249,4.21464,1.84964,1.52228,1.49782,6.2457,5.32416,74.8911,98.3935,85.2452
129,B0007,3.46325,4.21482,1.85323,1.50749,1.48254,6.1894,5.26075,74.1268,98.3445,84.9962
133,B0007,3.48036,4.21463,1.85633,1.50699,1.49814,6.19255,5.30913,74.9068,99.4122,85.7341
137,B0007,3.4628,4.21467,1.86578,1.49228,1.47225,6.1302,5.2057,73.6124,98.6577,84.9189
141,B0007,3.46626,4.21466,1.86909,1.47715,1.45135,6.07156,5.13963,72.5677,98.254,84.6509
145,B0007,3.46579,4.2146,1.86583,1.46654,1.44138,6.03073,5.09388,72.069,98.2846,84.4655
149,B0007,3.46663,4.21464,1.86372,1.45315,1.44186,5.97705,5.09082,72.0929,99.223,85.1728
153,B0007,3.46425,4.21461,1.8757,1.46173,1.44179,6.00991,5.08584,72.0895,98.6356,84.6243
157,B0007,3.46699,4.21467,1.88079,1.44604,1.42609,5.9494,5.02354,71.3044,98.6205,84.4379
161,B0007,3.46517,4.21469,1.88005,1.43702,1.41084,5.91439,4.98434,70.542,98.1781,84.2748
165,B0007,3.4672,4.21463,1.8858,1.42548,1.40046,5.86899,4.94416,70.0228,98.2443,84.2421
2,B0018,3.00075,4.20192,1.81258,1.86901,1.8396,7.58766,6.57216,91.9801,98.4266,86.6164
6,B0018,2.88893,4.20203,1.8347,1.84852,1.8212,7.4743,6.51094,91.0601,98.5222,87.111
10,B0018,2.9194,4.20184,1.83504,1.84268,1.81213,7.45384,6.49643,90.6063,98.3419,87.1556
14,B0018,3.17086,4.20228,1.84623,1.80011,1.78094,7.32896,6.38169,89.0469,98.9348,87.0749
18,B0018,3.04674,4.2019,1.86561,1.76997,1.74622,7.17788,6.22986,87.311,98.6584,86.7924
22,B0018,3.07526,4.20183,1.87827,1.73814,1.71147,7.05865,6.09784,85.5735,98.4654,86.3882
26,B0018,3.05308,4.20256,1.88266,1.75262,1.72223,7.11007,6.14923,86.1116,98.2661,86.4862
30,B0018,3.11745,4.20228,1.90201,1.70989,1.6819,6.94991,5.99248,84.0951,98.3632,86.2238
34,B0018,3.28644,4.20298,1.90905,1.67753,1.64822,6.85086,5.882,82.4112,98.2531,85.8578
38,B0018,3.16427,4.20307,1.92909,1.64148,1.61401,6.68648,5.74534,80.7003,98.3262,85.9248
42,B0018,3.14102,4.20262,1.91743,1.65497,1.61642,6.73962,5.75315,80.8208,97.6702,85.3631
46,B0018,2.9112,4.20292,1.86948,1.75303,1.71657,7.08969,6.12126,85.8284,97.9202,86.3403
50,B0018,3.25331,4.20297,1.89264,1.67765,1.66641,6.84593,5.93652,83.3205,99.3299,86.716
54,B0018,3.11724,4.20271,1.91192,1.64427,1.60574,6.68999,5.72089,80.2868,97.6565,85.5143
58,B0018,3.10874,4.20296,1.90727,1.63149,1.5921,6.63622,5.6691,79.6048,97.5853,85.4266
62,B0018,3.14708,4.20262,1.92636,1.58691,1.55562,6.46825,5.5072,77.7809,98.0281,85.1419
66,B0018,3.16478,4.20272,1.92848,1.55692,1.52226,6.35497,5.37472,76.113,97.7735,84.575
70,B0018,3.33268,4.20405,1.91085,1.51701,1.53343,6.23548,5.43621,76.6713,101.082,87.1818
74,B0018,3.17989,4.20292,1.93033,1.51969,1.48332,6.21031,5.24386,74.1662,97.6068,84.4379
78,B0018,3.18088,4.20237,1.93064,1.49071,1.45809,6.09588,5.14242,72.9046,97.8119,84.359
82,B0018,3.20352,4.2026,1.93586,1.4644,1.43927,5.99569,5.04912,71.9636,98.2842,84.2125
86,B0018,3.15498,4.20312,1.91706,1.50342,1.45258,6.147,5.12147,72.6291,96.6184,83.3166
90,B0018,3.33127,4.20366,1.91173,1.43596,1.45458,5.92366,5.10423,72.7288,101.297,86.1669
94,B0018,3.18589,4.20213,1.92773,1.43961,1.40568,5.89556,4.93555,70.284,97.6428,83.7164
98,B0018,3.20609,4.20289,1.94474,1.41456,1.38936,5.79848,4.85541,69.4682,98.2188,83.736
102,B0018,3.19758,4.20383,1.94518,1.40204,1.37335,5.74926,4.79136,68.6673,97.9533,83.3387
106,B0018,3.14158,4.20374,1.91969,1.48758,1.4501,6.08095,5.09571,72.505,97.4803,83.798
110,B0018,3.32282,4.20256,1.93263,1.43698,1.41389,5.91154,4.95451,70.6945,98.3931,83.8108
114,B0018,3.17573,4.20295,1.94437,1.42068,1.38603,5.81737,4.85046,69.3014,97.5609,83.3789
118,B0018,3.18846,4.20266,1.93203,1.39527,1.35899,5.7215,4.76152,67.9493,97.3991,83.2215
122,B0018,3.16311,4.20319,1.92524,1.43325,1.39349,5.86697,4.90396,69.6745,97.2256,83.5859
126,B0018,3.18629,4.2026,1.92656,1.40144,1.36866,5.74383,4.80683,68.4329,97.661,83.6868
130,B0018,3.32742,4.20324,1.92769,1.37938,1.3548,5.68334,4.75072,67.7398,98.2178,83.5904
3,B0053,3.54668,4.20977,1.56162,1.39796,1.13059,5.82708,4.29393,56.5293,80.8737,73.6892
7,B0053,3.52182,4.2096,1.54451,1.38678,1.06475,5.78218,4.23183,53.2375,76.7784,73.1874
11,B0053,3.71385,4.2097,1.55454,1.35694,1.08536,5.69006,4.13337,54.2678,79.9858,72.6421
15,B0053,3.53851,4.20959,1.54012,1.34024,1.02404,5.59028,4.10577,51.2018,76.4069,73.4449
19,B0053,3.52962,4.2099,1.55174,1.33268,1.05595,5.55709,4.03054,52.7974,79.2349,72.5298
23,B0053,3.5202,4.21008,1.54146,1.35676,1.03522,5.65924,4.09762,51.7611,76.301,72.4058
27,B0053,3.71701,4.20981,1.54521,1.3245,1.04659,5.55643,4.04383,52.3294,79.0176,72.7774
31,B0053,3.529,4.20957,1.53618,1.3104,1.02501,5.4679,3.96749,51.2503,78.2209,72.5597
35,B0053,3.54055,4.20987,1.54323,1.29064,1.01504,5.38587,3.95725,50.7519,78.6459,73.4746
39,B0053,3.52349,4.21,1.53198,1.29381,1.00417,5.39897,3.90843,50.2084,77.6131,72.392
43,B0053,3.70061,4.20989,1.5534,1.41292,1.11368,5.91929,4.22031,55.684,78.8209,71.2976
47,B0053,3.52012,4.20973,1.54056,1.32691,1.01246,5.5332,4.05949,50.6229,76.3023,73.3661
51,B0053,3.52752,4.20969,1.53972,1.30367,1.00111,5.43782,4.00727,50.0556,76.7919,73.6926
1,B0054,3.67693,4.20164,1.97127,1.55579,1.16654,6.51795,4.06693,58.3272,74.9809,62.3958
5,B0054,3.75798,4.20172,1.51193,1.18193,1.06555,4.95185,4.46097,53.2775,90.1536,90.087
9,B0054,3.75545,4.20176,2.18528,1.15761,1.01819,4.84598,3.63795,50.9094,87.9557,75.0714
13,B0054,3.68783,4.20263,2.2311,1.33426,1.03318,5.55862,3.59174,51.6592,77.435,64.6157
17,B0054,3.63212,4.20174,1.61391,1.3804,1.01534,5.74208,4.16294,50.7669,73.5538,72.4989
21,B0054,3.71349,4.20258,1.62275,1.34433,1.10166,5.62442,4.40863,55.0832,81.9488,78.3838
25,B0054,3.66823,4.20177,1.62248,1.35275,1.00733,5.63037,4.23014,50.3665,74.4652,75.1307
29,B0054,3.73356,4.20281,1.60078,1.15739,0.981249,4.83547,4.14459,49.0624,84.7814,85.7122
33,B0054,3.67294,4.20177,2.20862,1.30393,0.972037,5.42879,3.43748,48.6019,74.5465,63.3194
37,B0054,3.72461,4.2021,2.14579,1.26531,0.968234,5.29543,3.44286,48.4117,76.5214,65.0158
41,B0054,3.76155,4.20241,1.5854,1.04612,0.931345,4.3765,4.01065,46.5673,89.0289,91.6407
45,B0054,3.74503,4.20201,1.59999,1.11514,0.949987,4.662,4.08105,47.4994,85.19,87.5388
49,B0054,3.62569,4.20185,1.64663,1.35451,0.995507,5.63328,4.08227,49.7754,73.4957,72.467
53,B0054,3.71111,4.20251,1.62985,1.30155,0.929476,5.44237,3.98147,46.4738,71.4129,73.1569
57,B0054,3.6271,4.20197,1.62241,1.28171,0.923294,5.33265,3.91487,46.1647,72.0363,73.4132
61,B0054,3.73546,4.20216,1.59879,1.10026,0.915899,4.59784,3.90984,45.795,83.2441,85.0366
65,B0054,3.6382,4.2022,2.11779,1.26428,0.927886,5.26197,3.32718,46.3943,73.3923,63.2306
69,B0054,3.71017,4.20228,1.6295,1.28665,0.91149,5.3827,3.90361,45.5745,70.8422,72.5213
73,B0054,3.67913,4.20196,1.61741,1.22027,0.876485,5.0822,3.81776,43.8242,71.8271,75.1202
77,B0054,3.70537,4.20199,1.60969,1.17041,0.873461,4.88058,3.77896,43.673,74.6285,77.4286
81,B0054,3.67636,4.20257,1.60578,1.20251,0.883506,5.00834,3.74555,44.1753,73.4719,74.7862
85,B0054,3.63688,4.20205,1.60796,1.23386,0.863827,5.13548,3.71962,43.1914,70.0103,72.4298
89,B0054,3.71812,4.20215,1.66274,1.21451,0.879973,5.08154,3.83133,43.9986,72.4552,75.3969
93,B0054,3.64737,4.20189,1.73112,1.25098,0.896124,5.2082,3.67359,44.8062,71.6337,70.5347
97,B0054,3.65053,4.20225,1.72319,1.22351,0.870593,5.09525,3.59673,43.5297,71.1555,70.5898
101,B0054,3.6813,4.2021,1.64033,1.1912,0.837392,4.96413,3.67264,41.8696,70.2981,73.9835
4,B0055,3.72668,4.2146,2.06624,1.30288,1.20676,5.44705,4.13842,60.3382,92.6229,75.9755
8,B0055,3.72222,4.21457,2.1163,1.23873,1.16971,5.17108,3.99828,58.4854,94.4284,77.3201
12,B0055,3.75493,4.21461,2.05239,1.1801,1.13265,4.93554,3.95363,56.6326,95.9797,80.1053
16,B0055,3.78677,4.21475,2.03725,1.14536,1.10917,4.80136,3.896,55.4584,96.8398,81.1436
20,B0055,3.75925,4.21461,2.10416,1.1464,1.07768,4.79311,3.80204,53.8842,94.006,79.3231
24,B0055,3.74155,4.21466,1.98536,1.20626,1.13744,5.03594,4.04231,56.8722,94.295,80.2693
28,B0055,3.75422,4.21459,2.09167,1.14748,1.10294,4.79148,3.84351,55.1469,96.1183,80.2156
32,B0055,3.78522,4.21464,1.95189,1.14107,1.09537,4.77973,3.91816,54.7687,95.9956,81.9746
36,B0055,3.75108,4.21462,1.97671,1.13719,1.08133,4.74905,3.84518,54.0663,95.0872,80.9673
40,B0055,3.75086,4.21462,2.07361,1.12429,1.04056,4.69288,3.70795,52.0281,92.553,79.0123
44,B0055,3.72435,4.21461,2.12159,1.22608,1.07933,5.11028,3.76625,53.9666,88.0313,73.6994
48,B0055,3.73754,4.21459,1.89681,1.32144,1.13401,5.51982,4.11382,56.7007,85.8166,74.5281
52,B0055,3.73272,4.2146,1.98803,1.18124,1.07553,4.92655,3.84804,53.7767,91.0509,78.1081
56,B0055,3.7554,4.21463,1.99474,1.09844,1.05331,4.58741,3.76983,52.6655,95.8913,82.1777
60,B0055,3.7518,4.21461,2.09991,1.10862,1.03542,4.62976,3.62615,51.771,93.3971,78.3227
64,B0055,3.73419,4.21466,2.05533,1.14811,1.02174,4.78971,3.64221,51.0871,88.9934,76.0422
68,B0055,3.7866,4.21461,2.03636,1.11475,1.02909,4.66803,3.70011,51.4544,92.3156,79.2649
72,B0055,3.73771,4.2146,1.99753,1.13726,1.04092,4.74575,3.67278,52.0462,91.5292,77.391
76,B0055,3.75304,4.2146,2.0212,1.08706,1.03342,4.5403,3.61127,51.671,95.0658,79.5382
80,B0055,3.75126,4.21457,1.95228,1.08328,1.02408,4.5229,3.64931,51.204,94.535,80.6853
84,B0055,3.79035,4.21465,1.88699,1.08763,1.01589,4.5543,3.72632,50.7943,93.4037,81.8197
88,B0055,3.7276,4.2147,1.97252,1.13095,0.998458,4.71651,3.60795,49.9229,88.2846,76.4961
92,B0055,3.75288,4.21463,1.88587,1.10905,1.04986,4.63157,3.84882,52.4929,94.6629,83.0997
96,B0055,3.76013,4.21465,1.92393,1.05628,1.00366,4.41197,3.73458,50.1828,95.018,84.6466
100,B0055,3.78264,4.21464,1.95252,1.11655,1.02014,4.67258,3.64118,51.0069,91.3653,77.9265
102,B0055,3.74257,4.21461,1.98244,1.10692,0.990759,4.62093,3.62439,49.538,89.5058,78.4341